{"FileOID": "ODM.DATASET.001", "AsOfDateTime": "2026-03-19T01:26:34.436469+00:00", "DatasetXMLVersion": "1.0.0", "CreationDateTime": "2026-03-19T01:26:34.436469+00:00", "ODMVersion": "1.3.2", "FileType": "Snapshot", "Originator": "swhume", "SourceSystem": "odmlib", "SourceSystemVersion": "0.1", "ClinicalData": {"StudyOID": "cdisc.odmlib.001", "MetaDataVersionOID": "MDV.001", "ItemGroupData": [{"ItemGroupOID": "IG.AE", "ItemGroupDataSeq": 1, "ItemData": [{"ItemOID": "IT.STUDYID", "Value": "CDISC01"}, {"ItemOID": "IT.AE.DOMAIN", "Value": "AE"}, {"ItemOID": "IT.USUBJID", "Value": "CDISC01.100008"}, {"ItemOID": "IT.AE.AESEQ", "Value": "1"}, {"ItemOID": "IT.AE.AETERM", "Value": "AGITATED"}, {"ItemOID": "IT.AE.AEMODIFY", "Value": "AGITATION"}, {"ItemOID": "IT.AE.AEDECOD", "Value": "Agitation"}, {"ItemOID": "IT.AE.AESEV", "Value": "MILD"}, {"ItemOID": "IT.AE.AESER", "Value": "N"}, {"ItemOID": "IT.AE.AEACN", "Value": "DOSE NOT CHANGED"}, {"ItemOID": "IT.AE.AEREL", "Value": "POSSIBLY RELATED"}]}, {"ItemGroupOID": "IG.AE", "ItemGroupDataSeq": 2, "ItemData": [{"ItemOID": "IT.STUDYID", "Value": "CDISC01"}, {"ItemOID": "IT.AE.DOMAIN", "Value": "AE"}, {"ItemOID": "IT.USUBJID", "Value": "CDISC01.100008"}, {"ItemOID": "IT.AE.AESEQ", "Value": "2"}, {"ItemOID": "IT.AE.AETERM", "Value": "ANXIETY"}, {"ItemOID": "IT.AE.AEMODIFY", "Value": "AGITATION"}, {"ItemOID": "IT.AE.AEDECOD", "Value": "Anxiety"}, {"ItemOID": "IT.AE.AESEV", "Value": "MODERATE"}, {"ItemOID": "IT.AE.AESER", "Value": "N"}, {"ItemOID": "IT.AE.AEACN", "Value": "DOSE NOT CHANGED"}, {"ItemOID": "IT.AE.AEREL", "Value": "POSSIBLY RELATED"}]}]}}