<?xml version='1.0' encoding='UTF-8'?>
<ODM FileOID="ODM.TEST.CD.001" Granularity="Metadata" AsOfDateTime="2026-04-28T20:29:03.906354+00:00" CreationDateTime="2026-04-28T20:29:03.906387+00:00" ODMVersion="1.3.2" Originator="ODMLIB" SourceSystem="ODMLIB" SourceSystemVersion="0.1" FileType="Snapshot" xmlns="http://www.cdisc.org/ns/odm/v1.3"><ClinicalData StudyOID="P2006-101" MetaDataVersionOID="101.01"><SubjectData SubjectKey="1000" TransactionType="Insert"><StudyEventData StudyEventOID="Screen"><FormData FormOID="DEMOG"><ItemGroupData ItemGroupOID="DM"><ItemData ItemOID="USUBJID" Value="101-001-001" /><ItemData ItemOID="SEX" Value="F" /></ItemGroupData></FormData><FormData FormOID="LABDATA"><ItemGroupData ItemGroupOID="LB"><ItemData ItemOID="LBDTC" Value="2006-07-14T14:48" /><ItemData ItemOID="LBTESTCD" Value="ALT" /><ItemData ItemOID="LBORRES" Value="245" /></ItemGroupData></FormData></StudyEventData></SubjectData></ClinicalData><ClinicalData StudyOID="P2006-101" MetaDataVersionOID="101.02"><SubjectData SubjectKey="1000" TransactionType="Insert"><StudyEventData StudyEventOID="VISIT_1"><FormData FormOID="AENONSER"><ItemGroupData ItemGroupOID="AE"><ItemData ItemOID="AETERM" Value="Fever" /><ItemData ItemOID="AESTDTC" Value="2006-08-21" /></ItemGroupData></FormData><FormData FormOID="LABDATA"><ItemGroupData ItemGroupOID="LB"><ItemData ItemOID="LBDTC" Value="2006-07-14T14:48" /><ItemData ItemOID="LBTESTCD" Value="ALT" /><ItemData ItemOID="LBORRES" Value="300" /></ItemGroupData></FormData></StudyEventData></SubjectData></ClinicalData></ODM>